File: XRD_read.inputs_1D.csv
# q (Angstrom^-1), I (counts)
0.602623,759.652
0.608276,771.248
0.613928,769.566
0.61958,769.96
0.625232,770.03
0.630884,767.96
0.636537,763.899
0.642189,764.433
0.647841,758.746
0.653493,759.202
0.659146,757.258
0.664798,763.206
0.67045,761.495
0.676102,758.481
0.681755,760.587
0.687407,756.951
0.693059,758.649
0.698711,757.756
0.704364,753.402
0.710016,749.747
0.715668,751.458
0.72132,749.046
0.726973,749.085
0.732625,748.851
0.738277,748.508
0.743929,747.234
0.749582,745.486
0.755234,745.786
0.760886,743.399
0.766538,742.563
0.77219,743.843
0.777843,742.593
0.783495,743.413
0.789147,740.78
0.794799,738.493
0.800452,737.263
0.806104,735.745
0.811756,733.889
0.817408,734.812
0.823061,733.605
0.828713,731.15
0.834365,730.973
0.840017,729.321
0.84567,730.15
0.851322,729.836
0.856974,730.078
0.862626,728.565
0.868279,726.46
0.873931,725.821
0.879583,723.865
0.885235,724.424
0.890887,724.555
0.89654,724.553
0.902192,723.172
0.907844,721.792
0.913496,720.164
0.919149,718.937
0.924801,717.171
0.930453,714.804
0.936105,717.101
0.941758,717.159
0.94741,714.847
0.953062,712.559
0.958714,712.276
0.964367,711.888
0.970019,712.942
0.975671,712.588
0.981323,710.977
0.986976,710.427
0.992628,706.768
0.99828,706.049
1.00393,705.71
1.00958,705.318
1.01524,704.297
1.02089,702.25
1.02654,701.214
1.03219,699.501
1.03785,700.399
1.0435,700.24
1.04915,697.317
1.0548,698.899
1.06045,697.535
1.06611,696.005
1.07176,695.399
1.07741,695.439
1.08306,695.785
1.08872,695.385
1.09437,694.275
1.10002,691.544
1.10567,690.462
1.11132,689.428
1.11698,688.428
1.12263,689.178
1.12828,688.532
1.13393,688.724
1.13959,688.365
1.14524,688.318
1.15089,687.053
1.15654,686.336
1.16219,685.086
1.16785,683.102
1.1735,681.089
1.17915,680.655
1.1848,680.768
1.19046,681.691
1.19611,679.241
1.20176,677.747
1.20741,677.409
1.21307,676.116
1.21872,675.44
1.22437,675.448
1.23002,674.384
1.23567,673.827
1.24133,673.96
1.24698,671.82
1.25263,672.798
1.25828,671.047
1.26394,670.051
1.26959,668.425
1.27524,667.594
1.28089,667.753
1.28654,668.053
1.2922,666.962
1.29785,664.938
1.3035,665.019
1.30915,663.843
1.31481,663.333
1.32046,663.722
1.32611,661.447
1.33176,660.105
1.33741,659.611
1.34307,657.71
1.34872,656.277
1.35437,657.304
1.36002,658.438
1.36568,656.092
1.37133,654.992
1.37698,654.778
1.38263,654.078
1.38828,652.82
1.39394,652.035
1.39959,652.123
1.40524,650.599
1.41089,650.041
1.41655,649.702
1.4222,649.386
1.42785,646.529
1.4335,646.368
1.43915,646.219
1.44481,645.598
1.45046,643.6
1.45611,642.907
1.46176,642.495
1.46742,642.247
1.47307,641.701
1.47872,640.765
1.48437,639.91
1.49002,639.55
1.49568,638.815
1.50133,637.718
1.50698,637.006
1.51263,638.214
1.51829,637.093
1.52394,635.451
1.52959,634.749
1.53524,635.425
1.54089,634.914
1.54655,633.424
1.5522,631.819
1.55785,630.764
1.5635,630.785
1.56916,630.378
1.57481,629.123
1.58046,629.435
1.58611,628.319
1.59177,628.154
1.59742,627.608
1.60307,627.64
1.60872,627.129
1.61437,625.62
1.62003,624.888
1.62568,624.896
1.63133,623.37
1.63698,623.44
1.64264,623.428
1.64829,624.257
1.65394,623.589
1.65959,622.182
1.66524,622.57
1.6709,621.144
1.67655,621.177
1.6822,621.645
1.68785,622.373
1.69351,621.291
1.69916,619.876
1.70481,619.986
1.71046,619.17
1.71611,618.795
1.72177,618.016
1.72742,618.305
1.73307,618.338
1.73872,619.079
1.74438,618.194
1.75003,617.261
1.75568,618.557
1.76133,618.239
1.76698,618.249
1.77264,617.697
1.77829,617.875
1.78394,618.547
1.78959,619.12
1.79525,618.531
1.8009,618.282
1.80655,618.856
1.8122,618.996
1.81785,619.057
1.82351,619.361
1.82916,619.919
1.83481,619.149
1.84046,619.674
1.84612,620.731
1.85177,621
1.85742,621.394
1.86307,622.759
1.86872,622.621
1.87438,624.243
1.88003,625.299
1.88568,625.475
1.89133,625.365
1.89699,626.06
1.90264,627.018
1.90829,628.348
1.91394,628.805
1.91959,627.982
1.92525,629.238
1.9309,629.485
1.93655,630.724
1.9422,631.603
1.94786,632.747
1.95351,634.379
1.95916,634.4
1.96481,635.118
1.97047,636.283
1.97612,637.305
1.98177,638.236
1.98742,638.509
1.99307,639.272
1.99873,639.579
2.00438,641.722
2.01003,642.048
2.01568,643.148
2.02134,644.074
2.02699,645.696
2.03264,646.354
2.03829,647.899
2.04394,649.045
2.0496,649.997
2.05525,649.786
2.0609,651.376
2.06655,651.784
2.07221,653.453
2.07786,655.133
2.08351,657.704
2.08916,659.969
2.09481,659.684
2.10047,660.61
2.10612,662.58
2.11177,663.551
2.11742,666.026
2.12308,667.168
2.12873,668.036
2.13438,669.493
2.14003,670.636
2.14568,673.752
2.15134,675.311
2.15699,677.615
2.16264,681.173
2.16829,683.371
2.17395,685.491
2.1796,686.444
2.18525,689.543
2.1909,694.17
2.19655,698.177
2.20221,700.711
2.20786,705.77
2.21351,713.313
2.21916,715.032
2.22482,719.052
2.23047,723.525
2.23612,729.135
2.24177,734.54
2.24742,740.604
2.25308,747.992
2.25873,755.529
2.26438,760.728
2.27003,769.47
2.27569,777.914
2.28134,784.891
2.28699,794.69
2.29264,803.561
2.29829,812.692
2.30395,820.774
2.3096,830.088
2.31525,840.321
2.3209,852.643
2.32656,864.926
2.33221,876.423
2.33786,890.101
2.34351,906.473
2.34917,923.217
2.35482,940.427
2.36047,958.962
2.36612,981.035
2.37177,1004.2
2.37743,1030.34
2.38308,1060.83
2.38873,1095.8
2.39438,1135.95
2.40004,1181.51
2.40569,1233.38
2.41134,1291.19
2.41699,1353.5
2.42264,1422.32
2.4283,1496.7
2.43395,1570.89
2.4396,1643.45
2.44525,1710.61
2.45091,1764.52
2.45656,1801.82
2.46221,1823.99
2.46786,1831.17
2.47351,1824.36
2.47917,1807.28
2.48482,1779.94
2.49047,1745.26
2.49612,1705.54
2.50178,1657.32
2.50743,1605.76
2.51308,1550.49
2.51873,1495.23
2.52438,1435.79
2.53004,1381.14
2.53569,1332.5
2.54134,1287.5
2.54699,1247.06
2.55265,1210.67
2.5583,1180.86
2.56395,1151.8
2.5696,1125.18
2.57525,1102.09
2.58091,1081.43
2.58656,1062.21
2.59221,1043.82
2.59786,1028.42
2.60352,1011.24
2.60917,993.257
2.61482,979.536
2.62047,964.856
2.62612,952.376
2.63178,938.644
2.63743,925.774
2.64308,914.278
2.64873,903.104
2.65439,891.703
2.66004,880.669
2.66569,870.068
2.67134,860.284
2.67699,851.252
2.68265,840.707
2.6883,831.723
2.69395,821.807
2.6996,813.85
2.70526,806.196
2.71091,798.295
2.71656,791.596
2.72221,783.756
2.72787,774.923
2.73352,769.298
2.73917,763.175
2.74482,755.941
2.75047,749.614
2.75613,742.976
2.76178,737.17
2.76743,732.663
2.77308,727.652
2.77874,721.491
2.78439,716.19
2.79004,712.103
2.79569,706.838
2.80134,701.69
2.807,698.737
2.81265,700.147
2.8183,691.465
2.82395,683.344
2.82961,703.91
2.83526,726.475
2.84091,672.807
2.84656,667.981
2.85221,664.017
2.85787,661.795
2.86352,658.188
2.86917,655.428
2.87482,652.737
2.88048,649.09
2.88613,647.031
2.89178,643.348
2.89743,639.582
2.90308,638.308
2.90874,635.903
2.91439,632.971
2.92004,630.451
2.92569,628.835
2.93135,625.485
2.937,623.25
2.94265,620.687
2.9483,619.069
2.95395,616.855
2.95961,616.552
2.96526,612.689
2.97091,611.685
2.97656,610.525
2.98222,608.038
2.98787,605.984
2.99352,604.495
2.99917,603.722
3.00482,600.814
3.01048,599.611
3.01613,598.572
3.02178,598.49
3.02743,596.425
3.03309,594.739
3.03874,594.196
3.04439,592.145
3.05004,591.845
3.05569,591.953
3.06135,590.773
3.067,588.99
3.07265,587.533
3.0783,587.47
3.08396,586.733
3.08961,585.598
3.09526,585.479
3.10091,585.523
3.10657,584.706
3.11222,583.428
3.11787,582.584
3.12352,583.151
3.12917,583.807
3.13483,582.139
3.14048,581.424
3.14613,582.022
3.15178,580.924
3.15744,580.671
3.16309,579.734
3.16874,579.005
3.17439,579.162
3.18004,580.368
3.1857,579.408
3.19135,579.125
3.197,579.798
3.20265,579.607
3.20831,580.559
3.21396,580.5
3.21961,579.729
3.22526,579.167
3.23091,579.28
3.23657,580.027
3.24222,580.698
3.24787,580.548
3.25352,580.76
3.25918,581.804
3.26483,581.77
3.27048,582.054
3.27613,582.807
3.28178,583.946
3.28744,585.095
3.29309,585.433
3.29874,586.067
3.30439,586.137
3.31005,586.747
3.3157,586.976
3.32135,588.195
3.327,589.387
3.33265,590.547
3.33831,590.995
3.34396,592.18
3.34961,593.266
3.35526,592.862
3.36092,594.744
3.36657,595.296
3.37222,596.848
3.37787,597.3
3.38352,598.504
3.38918,600.383
3.39483,601.451
3.40048,602.983
3.40613,604.995
3.41179,607.19
3.41744,608.545
3.42309,610.328
3.42874,612.592
3.43439,614.869
3.44005,617.13
3.4457,618.129
3.45135,621.933
3.457,624.213
3.46266,625.119
3.46831,625.51
3.47396,626.669
3.47961,626.981
3.48527,626.869
3.49092,625.469
3.49657,624.185
3.50222,622.343
3.50787,619.438
3.51353,616.367
3.51918,613.617
3.52483,610.31
3.53048,607.116
3.53614,605.694
3.54179,602.415
3.54744,600.006
3.55309,597.982
3.55874,594.97
3.5644,593.024
3.57005,591.148
3.5757,589.327
3.58135,587.69
3.58701,587.052
3.59266,586.021
3.59831,583.666
3.60396,582.734
3.60961,581.759
3.61527,580.603
3.62092,578.744
3.62657,578.243
3.63222,578.542
3.63788,577.201
3.64353,576.123
3.64918,574.625
3.65483,574.101
3.66048,575.226
3.66614,574.482
3.67179,573.09
3.67744,572.285
3.68309,571.739
3.68875,571.876
3.6944,571.779
3.70005,571.27
3.7057,571.489
3.71135,570.374
3.71701,570.904
3.72266,571.293
3.72831,570.708
3.73396,570.189
3.73962,568.948
3.74527,570.875
3.75092,571.147
3.75657,569.934
3.76222,569.978
3.76788,570.833
3.77353,571.337
3.77918,570.521
3.78483,570.608
3.79049,571.497
3.79614,571.978
3.80179,572.318
3.80744,571.806
3.81309,572.137
3.81875,573.142
3.8244,572.318
3.83005,573.553
3.8357,574.052
3.84136,574.685
3.84701,574.355
3.85266,575.57
3.85831,575.66
3.86397,576.408
3.86962,577.207
3.87527,577.668
3.88092,578.125
3.88657,578.585
3.89223,579.605
3.89788,579.909
3.90353,580.715
3.90918,581.853
3.91484,583.024
3.92049,584.683
3.92614,586.281
3.93179,587.171
3.93744,587.272
3.9431,588.955
3.94875,589.624
3.9544,589.521
3.96005,592.269
3.96571,592.998
3.97136,593.926
3.97701,594.974
3.98266,594.45
3.98831,594.847
3.99397,595.956
3.99962,597.342
4.00527,597.799
4.01092,598.097
4.01658,598.683
4.02223,598.366
4.02788,598.795
4.03353,601.044
4.03918,602.254
4.04484,602.594
4.05049,603.514
4.05614,604.449
4.06179,605.088
4.06745,604.347
4.0731,605.901
4.07875,607.311
4.0844,607.724
4.09005,608.416
4.09571,610.271
4.10136,610.785
4.10701,610.619
4.11266,612.81
4.11832,613.427
4.12397,614.657
4.12962,615.657
4.13527,616.692
4.14092,619.056
4.14658,620.369
4.15223,621.05
4.15788,622.88
4.16353,625.297
4.16919,627.717
4.17484,629.673
4.18049,633.181
4.18614,635.786
4.19179,639.508
4.19745,643.493
4.2031,648.163
4.20875,653.554
4.2144,659.408
4.22006,664.66
4.22571,671.107
4.23136,680.185
4.23701,688.316
4.24267,695.607
4.24832,703.776
4.25397,712.409
4.25962,719.387
4.26527,725.794
4.27093,731.555
4.27658,734.061
4.28223,736.469
4.28788,736.84
4.29354,733.773
4.29919,728.127
4.30484,722.803
4.31049,716.053
4.31614,707.455
4.3218,698.598
4.32745,690.236
4.3331,681.383
4.33875,671.608
4.34441,663.045
4.35006,653.315
4.35571,645.525
4.36136,639.676
4.36701,631.471
4.37267,625.525
4.37832,621.318
4.38397,613.978
4.38962,609.416
4.39528,605.296
4.40093,600.733
4.40658,596.706
4.41223,594.01
4.41788,591.219
4.42354,590.609
4.42919,588.665
4.43484,584.88
4.44049,582.109
4.44615,579.938
4.4518,577.876
4.45745,577.708
4.4631,575.813
4.46875,573.585
4.47441,572.839
4.48006,570.22
4.48571,569.341
4.49136,568.886
4.49702,567.388
4.50267,566.779
4.50832,565.202
4.51397,565.696
4.51962,564.096
4.52528,562.92
4.53093,561.621
4.53658,560.284
4.54223,560.419
4.54789,559.171
4.55354,558.385
4.55919,558.008
4.56484,558.408
4.57049,558.532
4.57615,559.247
4.5818,558.394
4.58745,557.155
4.5931,556.993
4.59876,558.15
4.60441,558.287
4.61006,559.736
4.61571,561.08
4.62137,561.649
4.62702,562.021
4.63267,562.692
4.63832,561.989
4.64397,563.367
4.64963,562.555
4.65528,561.88
4.66093,561.551
4.66658,560.815
4.67224,559.327
4.67789,557.663
4.68354,554.871
4.68919,552.323
4.69484,550.251
4.7005,547.932
4.70615,545.825
4.7118,543.977
4.71745,541.496
4.72311,540.31
4.72876,538.157
4.73441,537.953
4.74006,536.132
4.74571,534.371
4.75137,533.641
4.75702,533.582
4.76267,533.054
4.76832,532.598
4.77398,532.345
4.77963,532.902
4.78528,532.616
4.79093,533.394
4.79658,533.544
4.80224,534.246
4.80789,534.43
4.81354,535.39
4.81919,537.004
4.82485,538.143
4.8305,538.711
4.83615,540.748
4.8418,541.66
4.84745,544.146
4.85311,545.508
4.85876,547.427
4.86441,549.468
4.87006,551.789
4.87572,554.079
4.88137,556.204
4.88702,559.102
4.89267,561.165
4.89832,562.985
4.90398,564.3
4.90963,566.758
4.91528,567.55
4.92093,566.849
4.92659,567.282
4.93224,566.545
4.93789,565.943
4.94354,563.819
4.94919,560.32
4.95485,557.494
4.9605,554.247
4.96615,550.739
4.9718,546.859
4.97746,542.289
4.98311,537.877
4.98876,534.775
4.99441,530.019
5.00007,526.505
5.00572,522.941
5.01137,519.568
5.01702,516.24
5.02267,514.015
5.02833,511.984
5.03398,508.398
5.03963,506.109
5.04528,504.07
5.05094,502.627
5.05659,499.927
5.06224,498.306
5.06789,496.93
5.07354,495.754
5.0792,494.143
5.08485,494.536
5.0905,492.687
5.09615,491.071
5.10181,491.618
5.10746,491.361
5.11311,490.126
5.11876,488.452
5.12441,488.556
5.13007,487.547
5.13572,488.006
5.14137,487.087
5.14702,486.254
5.15268,485.554
5.15833,485.567
5.16398,486.623
5.16963,485.99
5.17528,485.959
5.18094,485.11
5.18659,484.774
5.19224,485.462
5.19789,484.883
5.20355,485.078
5.2092,485.024
5.21485,484.436
5.2205,485.905
5.22615,486.309
5.23181,485.144
5.23746,486.324
5.24311,485.883
5.24876,485.646
5.25442,486.066
5.26007,486.124
5.26572,486.375
5.27137,486.387
5.27702,486.568
5.28268,487.359
5.28833,486.949
5.29398,486.607
5.29963,487.957
5.30529,487.943
5.31094,488.784
5.31659,488.333
5.32224,489.189
5.32789,489.471
5.33355,490.38
5.3392,492.214
5.34485,492.158
5.3505,490.654
5.35616,491.309
5.36181,493.279
5.36746,493.091
5.37311,493.066
5.37877,494.097
5.38442,496.129
5.39007,497.741
5.39572,498.765
5.40137,501.179
5.40703,500.905
5.41268,501.263
5.41833,502.109
5.42398,504.46
5.42964,504.142
5.43529,505.919
5.44094,507.995
5.44659,509.083
5.45224,510.952
5.4579,511.688
5.46355,512.844
5.4692,515.148
5.47485,515.622
5.48051,516.986
5.48616,517.267
5.49181,516.924
5.49746,517.869
5.50311,518.468
5.50877,518.87
5.51442,519.321
5.52007,519.001
5.52572,519.523
5.53138,519.839
5.53703,519.031
5.54268,520.192
5.54833,519.283
5.55398,519.308
5.55964,520.023
5.56529,520.325
5.57094,521.234
5.57659,521.082
5.58225,521.512
5.5879,521.982
5.59355,522.4
5.5992,523.468
5.60485,524.999
5.61051,525.113
5.61616,527.184
5.62181,527.332
5.62746,526.981
5.63312,528.316
5.63877,530.6
5.64442,531.285
5.65007,533.667
5.65572,535.669
5.66138,536.337
5.66703,537.878
5.67268,538.901
5.67833,541.046
5.68399,543.745
5.68964,545.635
5.69529,546.85
5.70094,548.93
5.70659,551.17
5.71225,554.578
5.7179,555.2
5.72355,557.96
5.7292,561.913
5.73486,564.549
5.74051,566.701
5.74616,569.176
5.75181,570.971
5.75747,574.019
5.76312,576.785
5.76877,576.906
5.77442,580.265
5.78007,585.464
5.78573,588.745
5.79138,593.352
5.79703,595.809
5.80268,595.543
5.80834,597.521
5.81399,601.201
5.81964,605.644
5.82529,609.28
5.83094,614.406
5.8366,611.583
5.84225,613.169
5.8479,616.254